X Direction (m/s) | Y Direction (m/s) | Z Direction (m/s) | Heading (deg) | Time (sec) (XYZ in ecef coords)
             -2.3              1.35              2.94          -37.5396      493121
            -1.95              1.21              2.61          -35.9219      493122
            -1.85              1.25              2.53          -34.5113      493123
            -2.28              1.71               3.2          -33.5844      493124
            -2.62              2.16              3.99          -31.6629      493125
            -2.98              2.67              4.78          -29.4887      493126
            -3.23              3.17              5.55          -27.5947      493127
            -3.39              3.44              5.98          -26.4804      493128
            -3.62              3.76              6.35           -26.024      493129
            -3.85              3.46              5.87          -28.9599      493130
            -4.93              3.28              5.54          -36.1497      493131
            -6.95               2.8              5.12          -48.4823      493132
            -8.74              1.89              4.19          -60.3116      493133
           -10.14              1.06              3.41          -68.9795      493134
           -11.57             -0.16              1.98          -77.4886      493135
           -12.79             -0.83               1.2           -83.566      493136
           -13.88             -0.75               1.4          -84.7868      493137
           -14.68             -0.59                 2          -83.9479      493138
           -15.62             -0.29              2.66          -81.3724      493139
           -16.47                 0              3.23           -79.565      493140
           -17.21              0.24              3.83           -78.321      493141
           -17.85              0.63              4.63          -76.4895      493142
           -18.34              1.12              5.51          -74.3014      493143
           -18.81               1.4              6.05          -72.9688      493144
           -18.93              1.58              6.51          -71.8966      493145
           -18.89              1.97              7.22          -70.1895      493146
           -18.75              2.37              7.79          -68.3891      493147
           -18.67              2.65              8.25          -67.0841      493148
           -18.61              2.64              8.35          -66.6088      493149
           -18.77               2.5               8.2          -66.9609      493150
           -18.87              2.36              8.09           -67.594      493151
           -19.13              2.28              8.14           -67.749      493152
           -19.42              2.21              8.18          -67.8611      493153
            -19.8              2.06              8.15          -68.2699      493154
           -20.26               1.8              7.85          -69.2067      493155
            -20.7              1.74              7.71          -69.9814      493156
           -21.12              1.53              7.34           -70.946      493157
           -20.96              1.56              7.19          -71.3134      493158
           -20.68              1.57              6.87          -71.6504      493159
           -20.78              1.69              6.66          -71.8576      493160
           -21.21              1.85              6.57          -72.1679      493161
           -21.71              2.14              6.78          -72.0739      493162
           -22.18              2.29              7.03          -71.8901      493163
           -22.44              2.53              7.39          -71.2875      493164
           -22.67              2.74              7.76          -70.6666      493165
           -22.57              2.85              8.05          -70.0354      493166
           -22.04              2.88               8.2          -69.3532      493167
           -21.82              3.05               8.4          -68.6625      493168
           -21.73              3.13               8.6           -68.133      493169
           -21.73              3.12              8.63           -67.894      493170
           -21.43              3.08              8.53          -67.8722      493171
           -21.07              3.15              8.55            -67.58      493172
           -20.75              3.14              8.48          -67.3948      493173
            -20.5              3.12              8.39          -67.2951      493174
           -20.28              3.14              8.26          -67.3026      493175
           -20.09              3.08              8.18          -67.2942      493176
           -19.96              2.95              8.07          -67.4994      493177
           -19.94              2.94              8.01          -67.6265      493178
           -19.86              2.94              8.04          -67.5995      493179
           -19.49              2.85              7.91          -67.5579      493180
           -19.05              2.75              7.71          -67.5888      493181
           -18.71              2.68              7.52          -67.7254      493182
           -18.44              2.67              7.38          -67.8698      493183
           -18.52              2.67              7.36          -67.8007      493184
           -18.71              2.74              7.46          -67.8122      493185
           -18.87              2.77              7.52           -67.789      493186
           -19.06               2.7              7.53          -67.9599      493187
           -18.99              2.65              7.52          -68.0758      493188
           -18.76              2.61               7.5          -67.9278      493189
           -18.83              2.58              7.59          -67.9037      493190
           -18.96              2.57               7.8          -67.6975      493191
           -18.95              2.71              7.97          -67.2447      493192
           -19.06              2.85               8.2           -66.826      493193
           -19.35              3.01              8.54          -66.3523      493194
            -19.2              3.14              8.54          -65.9884      493195
           -18.92              3.15              8.46          -65.8136      493196
           -18.74              3.07              8.36          -65.7264      493197
           -18.57              3.02              8.24           -65.835      493198
           -18.37              2.97              8.11          -65.9671      493199
           -17.97              2.79              7.85           -66.192      493200
           -17.61              2.47              7.47          -66.9166      493201
           -17.59              2.17              7.02          -67.9051      493202
           -17.88              2.21              6.87          -68.5765      493203
           -18.25              2.25              6.84          -68.9648      493204
           -18.59              2.36              6.88          -69.0459      493205
           -19.14              2.48               6.8          -69.3294      493206
           -19.76              2.61              6.76          -69.5557      493207
           -20.57              2.91              6.85          -69.7864      493208
           -21.41              3.26              7.24          -69.5221      493209
           -22.26              3.59              7.71            -69.08      493210
           -23.03              3.92              8.11          -68.6357      493211
           -23.69              4.12              8.46          -68.3943      493212
           -24.43              4.26              8.63          -68.4206      493213
           -25.09              4.39              8.82          -68.6341      493214
            -25.8              4.56              8.96          -68.6423      493215
           -26.38              4.82              9.31          -68.5538      493216
           -27.07              4.93              9.46          -68.4334      493217
           -27.35              5.02              9.69           -68.457      493218
           -27.37              4.91              9.86          -68.4265      493219
           -27.24               4.8              9.79          -68.4649      493220
           -27.42              4.76              9.99          -68.5072      493221
           -27.52              4.67             10.28          -68.3953      493222
            -27.6              4.43             10.43          -68.3941      493223
           -27.61              4.18             10.56          -68.4939      493224
           -27.43              3.92             10.72          -68.5116      493225
           -27.24              3.83             10.93          -68.2226      493226
           -27.08              3.68             10.85          -68.2677      493226
           -26.98              3.53              10.8          -68.2232      493227
           -26.84               3.4             10.73          -68.4715      493229
           -26.77              3.29              10.7          -68.5865      493230
           -26.69              3.22             10.72          -68.5903      493231
           -26.56              3.15             10.79          -68.4606      493232
           -26.46              3.12             10.79          -68.3288      493233
           -26.42              3.15              10.8           -68.257      493234
           -26.46              3.22             10.81          -68.1285      493235
           -26.53              3.24             10.79          -68.1238      493236
            -26.7              3.28             10.64          -68.2283      493237
              -27              3.39             10.47          -68.5216      493238
           -27.26              3.58             10.43          -68.6277      493239
           -27.67              3.71             10.42          -68.6717      493240
            -28.1              3.96             10.48          -68.6404      493241
           -28.56              4.28             10.69          -68.4309      493242
           -29.12              4.59             10.83          -68.1905      493243
           -29.17              4.71             10.67           -68.205      493244
           -29.14              4.83             10.54          -68.3303      493245
           -29.03              4.96             10.53           -68.314      493246
           -28.86              5.15             10.63          -68.0495      493247
           -28.56              5.46             10.91          -67.3853      493248
           -28.29              5.64             11.13          -66.7629      493249
           -28.11              5.59             11.08          -66.6702      493250
           -27.83              5.29             10.92          -66.9602      493251
           -27.58              4.98              10.8          -67.2098      493252
           -27.29              4.71             10.62          -67.5171      493253
           -26.87              4.36             10.37           -67.949      493254
           -26.31              3.92              9.99          -68.4498      493255
           -25.71              3.43              9.57          -69.0895      493256
           -25.12              3.05              9.15           -69.697      493257
           -24.66              2.71              8.68          -70.2683      493258
           -24.11              2.51              8.38          -70.7796      493259
            -23.5              2.33              8.18          -70.8507      493260
           -22.96              2.15              7.88           -71.227      493261
           -22.55              1.76              7.23          -72.1401      493262
           -22.63              1.15              6.35          -73.9762      493263
           -22.75              1.02              6.24          -74.9532      493264
           -23.01              1.02               6.4          -74.9966      493265
           -23.38              0.97              6.51          -74.9445      493266
            -23.7              0.89              6.59          -75.0292      493267
           -24.06              0.84              6.62          -75.1856      493268
            -24.4               0.8              6.52          -75.4243      493269
           -24.62              0.61              6.48          -75.9916      493270
           -24.89              0.42              6.25          -76.3667      493271
           -25.18              0.19              6.05          -77.0095      493272
           -25.49              0.03              5.79          -77.7127      493273
           -25.85             -0.07               5.5          -78.3371      493274
           -26.17             -0.22               5.3          -78.9868      493275
           -26.41              -0.4               5.2          -79.4407      493276
           -26.72             -0.59              5.09          -79.7627      493277
           -27.01             -0.75              4.95          -80.2598      493278
           -27.28             -1.04              4.58          -80.9699      493279
           -27.22             -1.25              4.23          -81.7025      493280
           -26.98             -1.46              4.04          -82.2378      493281
           -26.76             -1.62              3.81          -82.6398      493282
           -26.57             -1.75              3.52           -83.091      493283
           -26.38             -1.86              3.21           -83.673      493284
           -26.17             -2.03              2.97          -84.1468      493285
           -26.06             -2.12               2.7          -84.6875      493286
           -25.93             -2.26              2.35          -85.2524      493287
           -25.73             -2.48              2.03          -85.9197      493288
           -25.71             -2.58              1.85          -86.4001      493289
           -25.72             -2.76              1.68          -86.8744      493290
           -25.79             -2.91               1.6          -87.1933      493291
           -25.84             -3.03              1.44          -87.4633      493292
           -25.97             -3.15              1.28          -87.8876      493293
           -26.14              -3.3              1.03          -88.4414      493294
           -26.25              -3.6              0.55           -89.192      493295
           -26.43             -3.89               0.2           269.881      493296
           -26.62             -4.12              -0.1           269.279      493297
            -26.8             -4.33             -0.27           268.825      493298
           -26.69             -4.45             -0.49           268.377      493299
            -26.1             -4.64             -0.75            267.74      493300
           -25.81             -4.77             -1.06           267.106      493301
           -25.78             -4.89             -1.25             266.5      493302
           -25.85             -4.94             -1.38           266.272      493303
           -25.89             -5.09             -1.53           265.982      493304
           -26.08             -5.32             -1.78           265.478      493305
           -26.19             -5.57             -2.23           264.699      493306
            -26.3             -5.87             -2.65           263.815      493307
           -26.53             -6.03             -2.91           263.257      493308
           -26.81             -6.13             -3.19            262.88      493309
           -27.23             -6.21              -3.5           262.645      493310
           -27.28             -6.21              -3.7            262.33      493311
            -27.1             -6.16             -3.88            262.17      493312
           -26.88             -6.03             -3.97           261.967      493313
           -26.66             -5.91             -3.97           261.903      493314
           -26.65             -5.69             -3.95             262.2      493315
           -26.65             -5.56             -4.09           262.249      493316
           -26.69             -5.41             -4.21           262.296      493317
           -26.75             -5.24             -4.38           262.208      493318
           -26.87             -5.11              -4.5            262.15      493319
            -26.9             -5.01             -4.53           262.026      493320
           -27.01             -4.97             -4.57           262.154      493321
           -27.02             -5.02             -4.55           262.101      493322
           -26.89             -5.15             -4.48           261.965      493323
           -26.74             -5.26             -4.36           261.918      493324
           -26.72             -5.29             -4.22           261.923      493325
           -26.85             -5.36             -4.11           262.045      493326
           -26.52             -5.43             -3.96           262.031      493327
           -25.95             -5.41             -3.74           262.011      493328
           -25.49             -5.09             -3.16           262.775      493329
           -24.98             -4.73             -2.56           263.854      493330
           -24.41             -4.77              -2.5           264.056      493331
           -23.77             -4.95             -2.65           263.653      493332
            -23.2             -5.03             -2.82           262.976      493333
            -22.7             -4.95             -2.84           262.744      493334
            -22.1             -4.91             -2.79            262.56      493335
            -21.4             -4.98             -2.91           261.983      493336
           -21.08             -5.01             -2.84           261.744      493337
           -21.09             -5.06             -2.78           261.739      493338
           -21.23             -5.14             -2.81           261.754      493339
           -21.42             -5.14             -2.77           262.001      493340
           -21.71             -5.16             -2.83           261.714      493341
           -21.88             -5.19             -2.89           262.029      493342
           -21.98             -5.17             -2.94           262.039      493343
           -22.13              -5.2             -2.97           261.912      493344
           -22.26             -5.23              -2.9           262.048      493345
           -22.26             -5.35             -2.84           262.011      493346
           -22.34             -5.37             -2.78           262.153      493347
           -22.37             -5.37             -2.76           262.174      493348
           -22.48             -5.29             -2.82           262.421      493349
           -22.48              -5.3             -2.94           262.464      493350
           -22.42             -5.23             -3.01           262.166      493351
           -22.42             -5.15             -3.13           262.088      493352
           -22.44             -5.01             -3.18           262.054      493353
           -22.45             -4.93             -3.21           262.006      493354
           -22.47             -4.82             -3.17           262.217      493355
           -22.42             -4.86             -3.25           262.115      493356
           -22.33             -4.96             -3.33           261.816      493357
           -22.28             -4.97             -3.36           261.724      493358
           -22.29             -5.01             -3.39           261.695      493359
           -22.21             -5.02             -3.37           261.615      493360
           -22.23             -4.99             -3.34           261.688      493361
            -22.2             -4.94             -3.29           261.817      493362
            -22.1             -4.89              -3.3           261.745      493363
           -22.04             -4.89             -3.27           261.723      493364
           -22.04             -5.03             -3.31           261.565      493365
           -21.99              -5.1             -3.32           261.532      493366
           -21.88              -5.1             -3.25           261.498      493367
           -21.54             -5.06             -3.23           261.424      493368
           -21.27             -5.03             -3.26            261.39      493369
           -20.72             -5.03             -3.27            260.99      493370
           -20.26             -5.05             -3.22           260.845      493371
           -20.22             -4.94             -3.07           261.028      493372
           -20.02             -4.97             -3.29           260.688      493373
           -20.11             -5.03             -3.32           260.573      493374
           -19.91             -4.92              -3.2           260.662      493375
           -19.53             -4.83             -3.27            260.35      493376
           -19.31             -4.82             -3.29           260.439      493377
           -19.29             -4.87             -3.36           260.187      493378
           -19.18             -4.92             -3.46           259.914      493379
           -18.93             -4.92             -3.37           259.981      493380
           -18.91             -4.93             -3.34            260.03      493381
           -18.91             -4.93             -3.31           259.949      493382
           -18.88             -4.93              -3.3           259.974      493383
           -18.86             -4.95             -3.35           259.763      493384
           -18.94             -4.96             -3.39             259.7      493385
              -19             -4.95             -3.45           259.543      493386
           -19.11             -4.99             -3.54           259.494      493387
            -19.2             -5.03             -3.56           259.312      493388
           -19.34              -5.1             -3.56           259.378      493389
           -19.42             -5.11             -3.55           259.395      493390
           -19.57             -5.22             -3.54           259.351      493391
           -19.68             -5.33             -3.51           259.353      493392
           -19.83             -5.37             -3.48           259.594      493393
           -19.85             -5.41             -3.53            259.51      493394
           -19.84             -5.39             -3.51           259.488      493395
           -19.87             -5.36             -3.51           259.555      493396
           -19.88             -5.34             -3.48           259.625      493397
           -20.05             -5.34             -3.42           259.783      493398
           -20.42             -5.35             -3.43           260.001      493399
           -20.97             -5.52             -3.53           259.979      493400
           -21.55             -5.65             -3.62           259.991      493401
           -22.11             -5.83             -3.73           260.035      493402
           -22.71              -5.9             -3.75           260.138      493403
           -22.97             -5.86             -3.58           260.545      493404
